#K-Path(1/A) Energy-Level(eV)
# NKPTS & NBANDS:  60  14
# Band-Index    1
   0.00000    -13.784237
   0.03773    -13.781394
   0.07546    -13.772881
   0.11319    -13.758771
   0.15092    -13.739187
   0.18865    -13.714304
   0.22638    -13.684346
   0.26411    -13.649586
   0.30184    -13.610357
   0.33957    -13.567053
   0.37730    -13.520137
   0.41503    -13.470132
   0.45276    -13.417620
   0.49049    -13.363247
   0.52822    -13.307714
   0.56595    -13.251783
   0.60368    -13.196246
   0.64141    -13.141918
   0.67914    -13.089612
   0.71687    -13.040099
   0.71687    -13.040099
   0.75539    -13.038401
   0.79391    -13.033345
   0.83243    -13.025040
   0.87095    -13.013665
   0.90947    -12.999470
   0.94799    -12.982775
   0.98651    -12.963966
   1.02503    -12.943494
   1.06355    -12.921864
   1.10207    -12.899634
   1.14059    -12.877404
   1.17911    -12.855795
   1.21764    -12.835436
   1.25616    -12.816945
   1.29468    -12.800899
   1.33320    -12.787817
   1.37172    -12.778136
   1.41024    -12.772192
   1.44876    -12.770185
   1.44876    -12.770185
   1.50268    -12.778261
   1.55660    -12.802161
   1.61052    -12.840933
   1.66444    -12.893072
   1.71836    -12.956588
   1.77228    -13.029148
   1.82620    -13.108210
   1.88012    -13.191181
   1.93404    -13.275490
   1.98796    -13.358738
   2.04188    -13.438730
   2.09580    -13.513541
   2.14972    -13.581511
   2.20364    -13.641233
   2.25756    -13.691567
   2.31148    -13.731614
   2.36540    -13.760696
   2.41932    -13.778331
   2.47324    -13.784237
 
# Band-Index    2
   2.47324    -12.791265
   2.41932    -12.790177
   2.36540    -12.787019
   2.31148    -12.782073
   2.25756    -12.775796
   2.20364    -12.768770
   2.14972    -12.761654
   2.09580    -12.755115
   2.04188    -12.749756
   1.98796    -12.746044
   1.93404    -12.744257
   1.88012    -12.744454
   1.82620    -12.746462
   1.77228    -12.749917
   1.71836    -12.754297
   1.66444    -12.759002
   1.61052    -12.763427
   1.55660    -12.767030
   1.50268    -12.769373
   1.44876    -12.770185
   1.44876    -12.770185
   1.41024    -12.772192
   1.37172    -12.778136
   1.33320    -12.787817
   1.29468    -12.800898
   1.25616    -12.816945
   1.21764    -12.835436
   1.17911    -12.855795
   1.14059    -12.877404
   1.10207    -12.899634
   1.06355    -12.921864
   1.02503    -12.943494
   0.98651    -12.963966
   0.94799    -12.982775
   0.90947    -12.999470
   0.87095    -13.013665
   0.83243    -13.025040
   0.79391    -13.033345
   0.75539    -13.038401
   0.71687    -13.040098
   0.71687    -13.040098
   0.67914    -12.994087
   0.64141    -12.952182
   0.60368    -12.914860
   0.56595    -12.882436
   0.52822    -12.855047
   0.49049    -12.832649
   0.45276    -12.815026
   0.41503    -12.801812
   0.37730    -12.792530
   0.33957    -12.786615
   0.30184    -12.783456
   0.26411    -12.782422
   0.22638    -12.782908
   0.18865    -12.784351
   0.15092    -12.786252
   0.11319    -12.788187
   0.07546    -12.789814
   0.03773    -12.790889
   0.00000    -12.791265
 
# Band-Index    3
   0.00000     -6.725506
   0.03773     -6.736689
   0.07546     -6.769440
   0.11319     -6.821505
   0.15092     -6.889568
   0.18865     -6.969731
   0.22638     -7.057935
   0.26411     -7.150237
   0.30184     -7.242965
   0.33957     -7.332814
   0.37730     -7.416852
   0.41503     -7.492524
   0.45276     -7.557640
   0.49049     -7.610373
   0.52822     -7.649267
   0.56595     -7.673222
   0.60368     -7.681501
   0.64141     -7.673720
   0.67914     -7.649815
   0.71687     -7.610031
   0.71687     -7.610031
   0.75539     -7.605800
   0.79391     -7.593139
   0.83243     -7.572144
   0.87095     -7.542982
   0.90947     -7.505898
   0.94799     -7.461231
   0.98651     -7.409428
   1.02503     -7.351074
   1.06355     -7.286926
   1.10207     -7.217952
   1.14059     -7.145398
   1.17911     -7.070841
   1.21764     -6.996281
   1.25616     -6.924211
   1.29468     -6.857645
   1.33320     -6.800075
   1.37172     -6.755236
   1.41024     -6.726616
   1.44876     -6.716763
   1.44876     -6.716763
   1.50268     -6.737991
   1.55660     -6.797359
   1.61052     -6.883812
   1.66444     -6.983714
   1.71836     -7.084362
   1.77228     -7.175588
   1.82620     -7.249966
   1.88012     -7.302443
   1.93404     -7.329908
   1.98796     -7.330883
   2.04188     -7.305377
   2.09580     -7.254868
   2.14972     -7.182418
   2.20364     -7.092928
   2.25756     -6.993554
   2.31148     -6.894160
   2.36540     -6.807349
   2.41932     -6.747166
   2.47324     -6.725506
 
# Band-Index    4
   2.47324     -5.748259
   2.41932     -5.773095
   2.36540     -5.844036
   2.31148     -5.951651
   2.25756     -6.083624
   2.20364     -6.227744
   2.14972     -6.373579
   2.09580     -6.512907
   2.04188     -6.639478
   1.98796     -6.748545
   1.93404     -6.836522
   1.88012     -6.900739
   1.82620     -6.939378
   1.77228     -6.951615
   1.71836     -6.937974
   1.66444     -6.901071
   1.61052     -6.846838
   1.55660     -6.786259
   1.50268     -6.736455
   1.44876     -6.716763
   1.44876     -6.716763
   1.41024     -6.726616
   1.37172     -6.755236
   1.33320     -6.800075
   1.29468     -6.857645
   1.25616     -6.924210
   1.21764     -6.996281
   1.17911     -7.070841
   1.14059     -7.145398
   1.10207     -7.217952
   1.06355     -7.286926
   1.02503     -7.351074
   0.98651     -7.409427
   0.94799     -7.461231
   0.90947     -7.505898
   0.87095     -7.542981
   0.83243     -7.572144
   0.79391     -7.593139
   0.75539     -7.605800
   0.71687     -7.610031
   0.71687     -7.610031
   0.67914     -7.554879
   0.64141     -7.485123
   0.60368     -7.401725
   0.56595     -7.305837
   0.52822     -7.198769
   0.49049     -7.082001
   0.45276     -6.957178
   0.41503     -6.826131
   0.37730     -6.690918
   0.33957     -6.553861
   0.30184     -6.417570
   0.26411     -6.284989
   0.22638     -6.159409
   0.18865     -6.044406
   0.15092     -5.943687
   0.11319     -5.860877
   0.07546     -5.799188
   0.03773     -5.761125
   0.00000     -5.748259
 
# Band-Index    5
   0.00000     -3.887190
   0.03773     -3.888053
   0.07546     -3.889595
   0.11319     -3.889192
   0.15092     -3.883799
   0.18865     -3.870901
   0.22638     -3.848917
   0.26411     -3.817145
   0.30184     -3.775528
   0.33957     -3.724408
   0.37730     -3.664351
   0.41503     -3.596051
   0.45276     -3.520273
   0.49049     -3.437852
   0.52822     -3.349701
   0.56595     -3.256845
   0.60368     -3.160464
   0.64141     -3.061974
   0.67914     -2.963124
   0.71687     -2.866160
   0.71687     -2.866160
   0.75539     -2.869053
   0.79391     -2.880393
   0.83243     -2.911741
   0.87095     -2.993198
   0.90947     -3.147892
   0.94799     -3.346186
   0.98651     -3.557006
   1.02503     -3.766467
   1.06355     -3.968102
   1.10207     -4.158231
   1.14059     -4.334390
   1.17911     -4.494731
   1.21764     -4.637745
   1.25616     -4.762104
   1.29468     -4.866541
   1.33320     -4.949793
   1.37172     -5.010573
   1.41024     -5.047665
   1.44876     -5.060145
   1.44876     -5.060145
   1.50268     -5.060481
   1.55660     -5.056597
   1.61052     -5.039546
   1.66444     -5.003702
   1.71836     -4.947702
   1.77228     -4.872559
   1.82620     -4.780229
   1.88012     -4.673016
   1.93404     -4.553440
   1.98796     -4.424295
   2.04188     -4.288757
   2.09580     -4.150511
   2.14972     -4.013846
   2.20364     -3.883685
   2.25756     -3.855830
   2.31148     -3.881097
   2.36540     -3.890082
   2.41932     -3.889087
   2.47324     -3.887190
 
# Band-Index    6
   2.47324     -3.540140
   2.41932     -3.544814
   2.36540     -3.589318
   2.31148     -3.665387
   2.25756     -3.765551
   2.20364     -3.812552
   2.14972     -3.752759
   2.09580     -3.679955
   2.04188     -3.599596
   1.98796     -3.520519
   1.93404     -3.458914
   1.88012     -3.444566
   1.82620     -3.518896
   1.77228     -3.730957
   1.71836     -4.027666
   1.66444     -4.336591
   1.61052     -4.619571
   1.55660     -4.850642
   1.50268     -5.005166
   1.44876     -5.060145
   1.44876     -5.060145
   1.41024     -5.047665
   1.37172     -5.010573
   1.33320     -4.949793
   1.29468     -4.866541
   1.25616     -4.762103
   1.21764     -4.637745
   1.17911     -4.494730
   1.14059     -4.334389
   1.10207     -4.158230
   1.06355     -3.968101
   1.02503     -3.766467
   0.98651     -3.557006
   0.94799     -3.346185
   0.90947     -3.147892
   0.87095     -2.993198
   0.83243     -2.911740
   0.79391     -2.880392
   0.75539     -2.869053
   0.71687     -2.866160
   0.71687     -2.866160
   0.67914     -2.774054
   0.64141     -2.690824
   0.60368     -2.621878
   0.56595     -2.574065
   0.52822     -2.664274
   0.49049     -2.764883
   0.45276     -2.862763
   0.41503     -2.956522
   0.37730     -3.045012
   0.33957     -3.127290
   0.30184     -3.202583
   0.26411     -3.270263
   0.22638     -3.329818
   0.18865     -3.380835
   0.15092     -3.422987
   0.11319     -3.456022
   0.07546     -3.495816
   0.03773     -3.528888
   0.00000     -3.540140
 
# Band-Index    7
   0.00000     -3.498807
   0.03773     -3.494036
   0.07546     -3.479748
   0.11319     -3.442818
   0.15092     -3.372646
   0.18865     -3.288512
   0.22638     -3.193759
   0.26411     -3.091730
   0.30184     -2.985851
   0.33957     -2.879906
   0.37730     -2.778494
   0.41503     -2.687578
   0.45276     -2.614777
   0.49049     -2.568421
   0.52822     -2.554630
   0.56595     -2.562610
   0.60368     -2.461875
   0.64141     -2.364381
   0.67914     -2.272720
   0.71687     -2.189666
   0.71687     -2.189666
   0.75539     -2.236252
   0.79391     -2.357485
   0.83243     -2.511064
   0.87095     -2.642201
   0.90947     -2.713040
   0.94799     -2.745725
   0.98651     -2.768734
   1.02503     -2.797226
   1.06355     -2.842150
   1.10207     -2.912724
   1.14059     -3.012701
   1.17911     -3.136436
   1.21764     -3.271750
   1.25616     -3.405996
   1.29468     -3.528928
   1.33320     -3.632714
   1.37172     -3.711356
   1.41024     -3.760419
   1.44876     -3.777093
   1.44876     -3.777093
   1.50268     -3.769314
   1.55660     -3.746094
   1.61052     -3.707811
   1.66444     -3.655116
   1.71836     -3.588908
   1.77228     -3.509492
   1.82620     -3.408221
   1.88012     -3.289048
   1.93404     -3.178588
   1.98796     -3.064780
   2.04188     -2.947012
   2.09580     -2.828681
   2.14972     -2.713707
   2.20364     -2.616868
   2.25756     -2.887956
   2.31148     -3.137573
   2.36540     -3.337920
   2.41932     -3.465059
   2.47324     -3.498807
 
# Band-Index    8
   2.47324     -2.313047
   2.41932     -2.331881
   2.36540     -2.370152
   2.31148     -2.430519
   2.25756     -2.510438
   2.20364     -2.606214
   2.14972     -2.362695
   2.09580     -2.176263
   2.04188     -2.092770
   1.98796     -2.099178
   1.93404     -2.163767
   1.88012     -2.268179
   1.82620     -2.410173
   1.77228     -2.597507
   1.71836     -2.832753
   1.66444     -3.096724
   1.61052     -3.355380
   1.55660     -3.574676
   1.50268     -3.723774
   1.44876     -3.777093
   1.44876     -3.777093
   1.41024     -3.760418
   1.37172     -3.711356
   1.33320     -3.632714
   1.29468     -3.528928
   1.25616     -3.405995
   1.21764     -3.271749
   1.17911     -3.136435
   1.14059     -3.012701
   1.10207     -2.912724
   1.06355     -2.842150
   1.02503     -2.797226
   0.98651     -2.768734
   0.94799     -2.745724
   0.90947     -2.713040
   0.87095     -2.642200
   0.83243     -2.511064
   0.79391     -2.357485
   0.75539     -2.236252
   0.71687     -2.189666
   0.71687     -2.189666
   0.67914     -2.117962
   0.64141     -2.060024
   0.60368     -2.017577
   0.56595     -1.991347
   0.52822     -1.980914
   0.49049     -1.984796
   0.45276     -2.000727
   0.41503     -2.026018
   0.37730     -2.057891
   0.33957     -2.093715
   0.30184     -2.131149
   0.26411     -2.168194
   0.22638     -2.203194
   0.18865     -2.234808
   0.15092     -2.261979
   0.11319     -2.283896
   0.07546     -2.299959
   0.03773     -2.309755
   0.00000     -2.313047
 
# Band-Index    9
   0.00000     -2.306267
   0.03773     -2.288379
   0.07546     -2.236249
   0.11319     -2.153907
   0.15092     -2.046639
   0.18865     -1.919807
   0.22638     -1.778181
   0.26411     -1.625705
   0.30184     -1.465572
   0.33957     -1.313025
   0.37730     -1.355969
   0.41503     -1.390791
   0.45276     -1.409336
   0.49049     -1.402413
   0.52822     -1.362905
   0.56595     -1.289197
   0.60368     -1.185394
   0.64141     -1.058504
   0.67914     -0.916068
   0.71687     -0.766072
   0.71687     -0.766072
   0.75539     -0.751505
   0.79391     -0.735792
   0.83243     -0.772538
   0.87095     -0.885948
   0.90947     -1.058556
   0.94799     -1.261506
   0.98651     -1.472107
   1.02503     -1.673593
   1.06355     -1.851774
   1.10207     -1.994541
   1.14059     -2.095694
   1.17911     -2.158652
   1.21764     -2.193378
   1.25616     -2.210143
   1.29468     -2.216571
   1.33320     -2.217673
   1.37172     -2.216603
   1.41024     -2.215274
   1.44876     -2.214721
   1.44876     -2.214721
   1.50268     -2.228092
   1.55660     -2.266443
   1.61052     -2.324415
   1.66444     -2.392376
   1.71836     -2.453659
   1.77228     -2.476481
   1.82620     -2.403092
   1.88012     -2.184684
   1.93404     -1.858146
   1.98796     -1.505234
   2.04188     -1.211931
   2.09580     -1.075258
   2.14972     -1.142279
   2.20364     -1.351940
   2.25756     -1.616765
   2.31148     -1.878273
   2.36540     -2.098406
   2.41932     -2.247464
   2.47324     -2.306267
 
# Band-Index   10
   2.47324     -1.081629
   2.41932     -1.086246
   2.36540     -1.099513
   2.31148     -1.119248
   2.25756     -1.140259
   2.20364     -1.151397
   2.14972     -1.131002
   2.09580     -1.049743
   2.04188     -0.909936
   1.98796     -0.798412
   1.93404     -0.843308
   1.88012     -1.061391
   1.82620     -1.352854
   1.77228     -1.629791
   1.71836     -1.847331
   1.66444     -1.999710
   1.61052     -2.101389
   1.55660     -2.166406
   1.50268     -2.202915
   1.44876     -2.214721
   1.44876     -2.214721
   1.41024     -2.215274
   1.37172     -2.216603
   1.33320     -2.217673
   1.29468     -2.216571
   1.25616     -2.210142
   1.21764     -2.193378
   1.17911     -2.158651
   1.14059     -2.095693
   1.10207     -1.994540
   1.06355     -1.851773
   1.02503     -1.673592
   0.98651     -1.472106
   0.94799     -1.261506
   0.90947     -1.058556
   0.87095     -0.885948
   0.83243     -0.772538
   0.79391     -0.735792
   0.75539     -0.751505
   0.71687     -0.766072
   0.71687     -0.766072
   0.67914     -0.619065
   0.64141     -0.492973
   0.60368     -0.418688
   0.56595     -0.427342
   0.52822     -0.513666
   0.49049     -0.646064
   0.45276     -0.800552
   0.41503     -0.964814
   0.37730     -1.132635
   0.33957     -1.300419
   0.30184     -1.267995
   0.26411     -1.224916
   0.22638     -1.186268
   0.18865     -1.153397
   0.15092     -1.126853
   0.11319     -1.106673
   0.07546     -1.092613
   0.03773     -1.084350
   0.00000     -1.081629
 
# Band-Index   11
   0.00000      1.062376
   0.03773      1.064059
   0.07546      1.069282
   0.11319      1.078551
   0.15092      1.092653
   0.18865      1.112573
   0.22638      1.139388
   0.26411      1.174155
   0.30184      1.217808
   0.33957      1.271071
   0.37730      1.334416
   0.41503      1.279563
   0.45276      1.052969
   0.49049      0.845196
   0.52822      0.669446
   0.56595      0.550567
   0.60368      0.521032
   0.64141      0.587023
   0.67914      0.718447
   0.71687      0.885684
   0.71687      0.885684
   0.75539      0.843364
   0.79391      0.784544
   0.83243      0.798464
   0.87095      0.912844
   0.90947      1.105374
   0.94799      1.341292
   0.98651      1.591276
   1.02503      1.831056
   1.06355      2.040959
   1.10207      2.211599
   1.14059      2.346791
   1.17911      2.456105
   1.21764      2.547222
   1.25616      2.624197
   1.29468      2.688409
   1.33320      2.739719
   1.37172      2.777322
   1.41024      2.800318
   1.44876      2.808061
   1.44876      2.808061
   1.50268      2.774200
   1.55660      2.675715
   1.61052      2.520860
   1.66444      2.319606
   1.71836      2.079465
   1.77228      1.805093
   1.82620      1.507784
   1.88012      1.226806
   1.93404      1.049538
   1.98796      1.078517
   2.04188      1.256662
   2.09580      1.281741
   2.14972      1.243759
   2.20364      1.180851
   2.25756      1.131697
   2.31148      1.097731
   2.36540      1.076742
   2.41932      1.065745
   2.47324      1.062376
 
# Band-Index   12
   2.47324      2.880825
   2.41932      2.901796
   2.36540      2.959441
   2.31148      2.730558
   2.25756      2.272983
   2.20364      1.826291
   2.14972      1.463990
   2.09580      1.302744
   2.04188      1.346486
   1.98796      1.617887
   1.93404      1.935758
   1.88012      2.163898
   1.82620      2.449285
   1.77228      2.790815
   1.71836      2.920897
   1.66444      2.871366
   1.61052      2.838117
   1.55660      2.819053
   1.50268      2.810367
   1.44876      2.808061
   1.44876      2.808061
   1.41024      2.800318
   1.37172      2.777322
   1.33320      2.739720
   1.29468      2.688409
   1.25616      2.624197
   1.21764      2.547222
   1.17911      2.456105
   1.14059      2.346791
   1.10207      2.211599
   1.06355      2.040960
   1.02503      1.831056
   0.98651      1.591276
   0.94799      1.341293
   0.90947      1.105374
   0.87095      0.912844
   0.83243      0.798464
   0.79391      0.784545
   0.75539      0.843364
   0.71687      0.885684
   0.71687      0.885684
   0.67914      1.072476
   0.64141      1.270545
   0.60368      1.474638
   0.56595      1.572798
   0.52822      1.641434
   0.49049      1.585062
   0.45276      1.491800
   0.41503      1.408034
   0.37730      1.517837
   0.33957      1.763195
   0.30184      2.011938
   0.26411      2.260380
   0.22638      2.504231
   0.18865      2.737953
   0.15092      2.953734
   0.11319      2.949947
   0.07546      2.913731
   0.03773      2.889365
   0.00000      2.880825
 
# Band-Index   13
   0.00000      3.334526
   0.03773      3.325070
   0.07546      3.270915
   0.11319      3.139165
   0.15092      2.990713
   0.18865      3.024778
   0.22638      2.991002
   0.26411      2.784636
   0.30184      2.579049
   0.33957      2.379860
   0.37730      2.192013
   0.41503      2.020088
   0.45276      1.868391
   0.49049      1.740957
   0.52822      1.684263
   0.56595      1.674185
   0.60368      1.537055
   0.64141      1.534986
   0.67914      1.566099
   0.71687      1.628775
   0.71687      1.628775
   0.75539      1.714150
   0.79391      1.910752
   0.83243      2.134360
   0.87095      2.304714
   0.90947      2.406084
   0.94799      2.494620
   0.98651      2.597348
   1.02503      2.728225
   1.06355      2.896980
   1.10207      3.103439
   1.14059      3.333748
   1.17911      3.567223
   1.21764      3.784147
   1.25616      3.968913
   1.29468      4.111247
   1.33320      4.207185
   1.37172      4.257245
   1.41024      4.272696
   1.44876      4.274885
   1.44876      4.274889
   1.50268      4.244221
   1.55660      4.125609
   1.61052      3.886260
   1.66444      3.551905
   1.71836      3.170727
   1.77228      2.986218
   1.82620      2.947810
   1.88012      2.468269
   1.93404      2.011311
   1.98796      1.768011
   2.04188      1.718936
   2.09580      1.967889
   2.14972      2.398223
   2.20364      2.819741
   2.25756      3.044192
   2.31148      3.032050
   2.36540      3.125927
   2.41932      3.319184
   2.47324      3.334534
 
# Band-Index   14
   2.47324      3.512512
   2.41932      3.461524
   2.36540      3.412940
   2.31148      3.434696
   2.25756      3.467181
   2.20364      3.503789
   2.14972      3.512835
   2.09580      3.510878
   2.04188      3.461960
   1.98796      3.374583
   1.93404      3.271730
   1.88012      3.169131
   1.82620      3.082837
   1.77228      3.458350
   1.71836      3.932429
   1.66444      4.337346
   1.61052      4.340091
   1.55660      4.363934
   1.50268      4.309962
   1.44876      4.274942
   1.44876      4.274930
   1.41024      4.273186
   1.37172      4.264395
   1.33320      4.207419
   1.29468      4.112850
   1.25616      3.969055
   1.21764      3.784160
   1.17911      3.567228
   1.14059      3.333750
   1.10207      3.103440
   1.06355      2.896980
   1.02503      2.728226
   0.98651      2.597360
   0.94799      2.494622
   0.90947      2.406088
   0.87095      2.304917
   0.83243      2.134420
   0.79391      1.910825
   0.75539      1.714152
   0.71687      1.628776
   0.71687      1.628776
   0.67914      1.720603
   0.64141      1.838722
   0.60368      1.934359
   0.56595      1.821769
   0.52822      1.908882
   0.49049      2.112844
   0.45276      2.315293
   0.41503      2.507702
   0.37730      2.683065
   0.33957      2.832308
   0.30184      2.945290
   0.26411      3.013870
   0.22638      3.037451
   0.18865      3.191432
   0.15092      3.384674
   0.11319      3.448559
   0.07546      3.451654
   0.03773      3.488880
   0.00000      3.512335
